Folder: vibrant/reg_test/Raman_Berry/output

Note: README.md
# vibrant

## Installation 

The CMake build framework is used in order to compile the `vibrant` code. Currently it has two dependencies (`fftw-3.3.10`, `greenX`) that are fetched and compiled automatically when the `vibrant` software is installed. To install it type the following in the root directory of the repository:
```bash 
mkdir build && cd build 
cmake ..
make -j 10
```
The default compiler is `gfortran`. To change to a specific compiler, run the above CMake command like this:
```bash 
cmake -DCMAKE_Fortran_COMPILER=f90 .. 
```

## Regression test 
The regression tests can be run by running the following in the build directory after `vibrant` was build:
```
ctest 
```

File: COF-1_Raman_sc_Berry.txt
   0.0000000000000000        0.0000000000000000
   19.5448        0.00649888
   39.0895        0.0107088
   58.6343        0.00372407
   78.1791        0.00484559
   97.7239        0.00516936
   117.269        0.00527985
   136.813        0.00273406
   156.358        0.00285961
   175.903        0.00264994
   195.448        0.00168522
   214.992        0.00233953
   234.537        0.00648919
   254.082        0.00218728
   273.627        0.00101705
   293.172        0.000881581
   312.716        0.000438435
   332.261        0.000555419
   351.806        0.000361583
   371.351        0.0005729
   390.895        0.000371813
   410.44        0.000512026
   429.985        0.000721738
   449.53        0.000782677
   469.074        0.000538686
   488.619        0.00054741
   508.164        0.000703659
   527.709        0.000451938
   547.254        0.000534932
   566.798        0.000458591
   586.343        0.000869506
   605.888        0.000874497
   625.433        0.00179055
   644.977        0.000988171
   664.522        0.0014764
   684.067        0.00118382
   703.612        0.000947161
   723.157        0.000836847
   742.701        0.000811328
   762.246        0.00261917
   781.791        0.00279786
   801.336        0.00106442
   820.88        0.000805914
   840.425        0.000824911
   859.97        0.000966151
   879.515        0.00100624
   899.059        0.000751465
   918.604        0.00109435
   938.149        0.000820645
   957.694        0.00120942
   977.239        0.00215327
   996.783        0.00616653
   1016.33        0.00162803
   1035.87        0.00146277
   1055.42        0.00140523
   1074.96        0.00112666
   1094.51        0.000892909
   1114.05        0.000957429
   1133.6        0.00085968
   1153.14        0.00127672
   1172.69        0.0016699
   1192.23        0.000967371
   1211.78        0.00106957
   1231.32        0.00166975
   1250.87        0.00117182
   1270.41        0.00192019
   1289.95        0.00332652
   1309.5        0.00434972
   1329.04        0.00500346
   1348.59        0.00325109
   1368.13        0.00255947
   1387.68        0.00141197
   1407.22        0.0013972
   1426.77        0.00107888
   1446.31        0.00101965
   1465.86        0.00131574
   1485.4        0.0015634
   1504.95        0.00135935
   1524.49        0.001929
   1544.04        0.00200641
   1563.58        0.00442584
   1583.13        0.00765803
   1602.67        0.0111445
   1622.22        0.00434264
   1641.76        0.00318968
   1661.31        0.00131004
   1680.85        0.00111306
   1700.4        0.0011954
   1719.94        0.000688265
   1739.48        0.00117656
   1759.03        0.00110818
   1778.57        0.001072
   1798.12        0.000944898
   1817.66        0.000781255
   1837.21        0.000581115
   1856.75        0.000891476
   1876.3        0.000858623
   1895.84        0.000913939
   1915.39        0.00102068
   1934.93        0.00111176
   1954.48        0.000866888
   1974.02        0.000626653
   1993.57        0.00105255
   2013.11        0.000651361
   2032.66        0.000658397
   2052.2        0.000754943
   2071.75        0.000834888
   2091.29        0.00098118
   2110.84        0.00109571
   2130.38        0.000601763
   2149.92        0.00076551
   2169.47        0.000865568
   2189.01        0.000716107
   2208.56        0.000721175
   2228.1        0.00109556
   2247.65        0.000813871
   2267.19        0.000537268
   2286.74        0.00117952
   2306.28        0.000871374
   2325.83        0.000897636
   2345.37        0.000826596
   2364.92        0.000641676
   2384.46        0.00124299
   2404.01        0.000922938
   2423.55        0.000806071
   2443.1        0.000645
   2462.64        0.000798689
   2482.19        0.00106526
   2501.73        0.000991239
   2521.28        0.000723081
   2540.82        0.000691738
   2560.36        0.00068047
   2579.91        0.00104775
   2599.45        0.000991907
   2619        0.000502275
   2638.54        0.000918175
   2658.09        0.00111665
   2677.63        0.00100478
   2697.18        0.000557728
   2716.72        0.000570475
   2736.27        0.00106996
   2755.81        0.000603871
   2775.36        0.000594393
   2794.9        0.000821204
   2814.45        0.000725016
   2833.99        0.000557628
   2853.54        0.000701348
   2873.08        0.00106281
   2892.63        0.000654685
   2912.17        0.000939788
   2931.72        0.00086392
   2951.26        0.000775946
   2970.81        0.000533029
   2990.35        0.000568829
   3009.89        0.000907475
   3029.44        0.000675858
   3048.98        0.000607319
   3068.53        0.000884236
   3088.07        0.00120418
   3107.62        0.00141449
   3127.16        0.00119619
   3146.71        0.000494815
   3166.25        0.000783401
   3185.8        0.000968813
   3205.34        0.000687664
   3224.89        0.00065673
   3244.43        0.000597769
   3263.98        0.000809536
   3283.52        0.000812512
   3303.07        0.000582777
   3322.61        0.000468598
   3342.16        0.000747627
   3361.7        0.000548661
   3381.25        0.000500003
   3400.79        0.000657704
   3420.33        0.00041454
   3439.88        0.000488613
   3459.42        0.000889871
   3478.97        0.000695214
   3498.51        0.000440032
   3518.06        0.000407128
   3537.6        0.000661376
   3557.15        0.000589104
   3576.69        0.000536746
   3596.24        0.000909714
   3615.78        0.000759324
   3635.33        0.000611042
   3654.87        0.000747935
   3674.42        0.000701719
   3693.96        0.000543991
   3713.51        0.000536607
   3733.05        0.000550719
   3752.6        0.00044477
   3772.14        0.000438045
   3791.69        0.000454624
   3811.23        0.000415205
   3830.78        0.000376703
   3850.32        0.000562128
   3869.86        0.000546344
   3889.41        0.000378565
   3908.95        0.000487263
   3928.5        0.000324796
   3948.04        0.000556314
   3967.59        0.000349112
   3987.13        0.00042036
   4006.68        0.000420289
   4026.22        0.00058904
   4045.77        0.000321591
   4065.31        0.000283065
   4084.86        0.000364608
   4104.4        0.000444078
   4123.95        0.000371125
   4143.49        0.000427125
   4163.04        0.000567681
   4182.58        0.000389269
   4202.13        0.000444005
   4221.67        0.000388472
   4241.22        0.000448097
   4260.76        0.000540659
   4280.3        0.000494532
   4299.85        0.000638771
   4319.39        0.000333754
   4338.94        0.000430472
   4358.48        0.000689723
   4378.03        0.000488259
   4397.57        0.000215979
   4417.12        0.000309606
   4436.66        0.000286978
   4456.21        0.000371928
   4475.75        0.000290622
   4495.3        0.000394198
   4514.84        0.000313414
   4534.39        0.000325704
   4553.93        0.000333405
   4573.48        0.000208214
   4593.02        0.000276592
   4612.57        0.00026252
   4632.11        0.000424716
   4651.66        0.000303935
   4671.2        0.000266367
   4690.74        0.000186595
   4710.29        0.000301595
   4729.83        0.000270453
   4749.38        0.000370255
   4768.92        0.000264759
   4788.47        0.000258479
   4808.01        0.000500784
   4827.56        0.000196549
   4847.1        0.000308884
   4866.65        0.000217508
   4886.19        0.000424272
   4905.74        0.000225328
   4925.28        0.000187864
   4944.83        0.000316966
   4964.37        0.00028227
   4983.92        0.000363349
   4996.95        0.000242302