Folder: vibrant/reg_test/Raman_DFPT/output

Note: README.md
# vibrant

## Installation 

The CMake build framework is used in order to compile the `vibrant` code. Currently it has two dependencies (`fftw-3.3.10`, `greenX`) that are fetched and compiled automatically when the `vibrant` software is installed. To install it type the following in the root directory of the repository:
```bash 
mkdir build && cd build 
cmake ..
make -j 10
```
The default compiler is `gfortran`. To change to a specific compiler, run the above CMake command like this:
```bash 
cmake -DCMAKE_Fortran_COMPILER=f90 .. 
```

## Regression test 
The regression tests can be run by running the following in the build directory after `vibrant` was build:
```
ctest 
```

File: COF-1_Raman_solv_DFPT.txt
   0.0000000000000000        0.0000000000000000
   19.5448        1.80613e+63
   39.0895        2.54856e+63
   58.6343        9.3893e+62
   78.1791        8.96099e+62
   97.7239        5.92048e+62
   117.269        1.43005e+63
   136.813        6.00499e+62
   156.358        4.92779e+62
   175.903        5.72336e+62
   195.448        2.22758e+62
   214.992        6.17198e+62
   234.537        7.15921e+62
   254.082        2.66919e+62
   273.627        1.19567e+62
   293.172        5.12729e+61
   312.716        2.46514e+61
   332.261        2.34507e+61
   351.806        2.48125e+61
   371.351        2.99406e+61
   390.895        2.6501e+61
   410.44        4.19123e+61
   429.985        3.85815e+61
   449.53        2.44894e+61
   469.074        3.77345e+61
   488.619        2.7169e+61
   508.164        1.67544e+61
   527.709        1.20768e+61
   547.254        1.44532e+61
   566.798        1.35082e+61
   586.343        2.24737e+61
   605.888        4.08988e+61
   625.433        4.54056e+62
   644.977        5.838e+61
   664.522        4.17854e+61
   684.067        4.03862e+62
   703.612        5.38936e+61
   723.157        5.39247e+61
   742.701        5.73246e+61
   762.246        2.35547e+62
   781.791        5.44541e+62
   801.336        1.54617e+62
   820.88        1.2428e+62
   840.425        6.12584e+61
   859.97        3.47853e+61
   879.515        2.51644e+61
   899.059        2.93072e+61
   918.604        2.83334e+61
   938.149        4.73976e+61
   957.694        3.58837e+61
   977.239        2.53526e+62
   996.783        7.65571e+62
   1016.33        1.38422e+62
   1035.87        5.63896e+61
   1055.42        6.89636e+61
   1074.96        4.86988e+61
   1094.51        4.03161e+61
   1114.05        2.18482e+61
   1133.6        3.06441e+61
   1153.14        3.12122e+61
   1172.69        9.675e+61
   1192.23        8.2764e+61
   1211.78        3.09225e+61
   1231.32        4.71091e+61
   1250.87        9.20533e+61
   1270.41        2.30572e+62
   1289.95        2.46224e+62
   1309.5        2.66365e+62
   1329.04        7.20965e+62
   1348.59        1.96114e+62
   1368.13        2.32094e+62
   1387.68        1.25495e+62
   1407.22        8.14013e+61
   1426.77        7.17331e+61
   1446.31        3.06078e+61
   1465.86        4.52681e+61
   1485.4        4.61549e+61
   1504.95        4.8422e+61
   1524.49        1.10867e+62
   1544.04        6.95114e+61
   1563.58        3.62582e+62
   1583.13        1.68975e+63
   1602.67        1.37911e+63
   1622.22        3.41757e+62
   1641.76        1.34155e+62
   1661.31        6.95056e+61
   1680.85        3.77378e+61
   1700.4        2.30318e+61
   1719.94        2.90223e+61
   1739.48        1.81039e+61
   1759.03        1.1708e+61
   1778.57        8.74028e+60
   1798.12        1.04824e+61
   1817.66        1.50403e+61
   1837.21        7.76375e+60
   1856.75        6.81348e+60
   1876.3        6.93225e+60
   1895.84        7.90814e+60
   1915.39        5.12486e+60
   1934.93        9.04717e+60
   1954.48        3.03127e+60
   1974.02        3.07824e+60
   1993.57        2.76282e+60
   2013.11        3.53949e+60
   2032.66        2.96885e+60
   2052.2        2.12611e+60
   2071.75        2.73634e+60
   2091.29        1.75165e+60
   2110.84        1.65656e+60
   2130.38        2.29663e+60
   2149.92        2.28101e+60
   2169.47        2.09755e+60
   2189.01        2.92762e+60
   2208.56        1.91305e+60
   2228.1        2.46706e+60
   2247.65        4.15495e+60
   2267.19        3.79449e+60
   2286.74        1.58138e+60
   2306.28        1.75586e+60
   2325.83        2.46696e+60
   2345.37        2.02369e+60
   2364.92        1.70174e+60
   2384.46        2.45937e+60
   2404.01        1.69173e+60
   2423.55        1.89739e+60
   2443.1        1.77493e+60
   2462.64        3.81095e+60
   2482.19        2.57288e+60
   2501.73        2.45753e+60
   2521.28        2.22151e+60
   2540.82        2.56121e+60
   2560.36        4.63506e+60
   2579.91        6.85914e+60
   2599.45        7.71631e+60
   2619        4.02003e+60
   2638.54        5.3354e+60
   2658.09        8.18314e+60
   2677.63        7.02423e+60
   2697.18        5.22369e+60
   2716.72        6.2715e+60
   2736.27        5.42458e+60
   2755.81        4.68543e+60
   2775.36        5.50094e+60
   2794.9        4.39421e+60
   2814.45        6.9173e+60
   2833.99        9.58104e+60
   2853.54        7.06267e+60
   2873.08        4.78267e+61
   2892.63        8.0412e+61
   2912.17        1.30164e+62
   2931.72        2.18812e+62
   2951.26        5.60894e+61
   2970.81        2.18652e+61
   2990.35        3.28249e+61
   3009.89        5.99275e+61
   3029.44        8.66648e+61
   3048.98        5.15501e+61
   3068.53        3.15029e+61
   3088.07        6.42118e+61
   3107.62        1.66254e+62
   3127.16        1.25434e+62
   3146.71        3.16925e+61
   3166.25        3.29782e+61
   3185.8        1.12762e+61
   3205.34        6.17218e+60
   3224.89        4.46969e+60
   3244.43        1.84255e+60
   3263.98        1.50036e+60
   3283.52        1.0223e+60
   3303.07        1.318e+60
   3322.61        8.43686e+59
   3342.16        6.93321e+59
   3361.7        6.04629e+59
   3381.25        5.9447e+59
   3400.79        6.36033e+59
   3420.33        3.34364e+59
   3439.88        3.08108e+59
   3459.42        2.94597e+59
   3478.97        3.88847e+59
   3498.51        4.50786e+59
   3518.06        3.35632e+59
   3537.6        2.84682e+59
   3557.15        1.97316e+59
   3576.69        2.32537e+59
   3596.24        1.53979e+59
   3615.78        1.053e+59
   3635.33        1.80366e+59
   3654.87        1.25318e+59
   3674.42        1.71058e+59
   3693.96        1.07822e+59
   3713.51        8.63568e+58
   3733.05        1.45426e+59
   3752.6        1.01956e+59
   3772.14        1.18852e+59
   3791.69        7.70618e+58
   3811.23        1.04765e+59
   3830.78        1.09748e+59
   3850.32        1.14584e+59
   3869.86        1.1805e+59
   3889.41        1.28034e+59
   3908.95        1.17827e+59
   3928.5        2.38236e+59
   3948.04        2.10356e+59
   3967.59        1.4943e+59
   3987.13        1.31494e+59
   4006.68        1.15194e+59
   4026.22        1.09687e+59
   4045.77        1.46949e+59
   4065.31        1.34295e+59
   4084.86        1.64683e+59
   4104.4        1.33791e+59
   4123.95        1.43431e+59
   4143.49        9.02967e+58
   4163.04        7.84294e+58
   4182.58        1.32137e+59
   4202.13        1.43858e+59
   4221.67        1.44904e+59
   4241.22        9.72582e+58
   4260.76        9.84486e+58
   4280.3        1.10823e+59
   4299.85        9.88787e+58
   4319.39        7.91071e+58
   4338.94        1.57852e+59
   4358.48        8.57291e+58
   4378.03        8.77711e+58
   4397.57        9.55966e+58
   4417.12        6.07431e+58
   4436.66        6.93941e+58
   4456.21        5.70454e+58
   4475.75        4.4713e+58
   4495.3        4.35933e+58
   4514.84        2.89677e+58
   4534.39        2.72382e+58
   4553.93        2.04889e+58
   4573.48        2.1083e+58
   4593.02        2.54676e+58
   4612.57        2.83776e+58
   4632.11        1.79685e+58
   4651.66        1.16002e+58
   4671.2        1.32866e+58
   4690.74        1.58329e+58
   4710.29        1.56531e+58
   4729.83        1.60306e+58
   4749.38        8.60785e+57
   4768.92        1.03133e+58
   4788.47        6.01945e+57
   4808.01        6.16951e+57
   4827.56        3.87488e+57
   4847.1        8.77185e+57
   4866.65        8.67238e+57
   4886.19        5.77579e+57
   4905.74        3.29068e+57
   4925.28        3.76609e+57
   4944.83        3.79437e+57
   4964.37        3.29432e+57
   4983.92        6.36332e+57
   4996.95        5.9336e+57